File: nzvi-2.2_XRD.csv
0.2711;-53
1.1975;272
1.4912;273
1.8301;220
2.1012;328
2.3723;275
2.5983;329
2.892;330
3.0276;384
3.2761;601
3.6828;332
4.0443;332
4.5188;333
4.8577;496
5.1288;389
5.3773;389
5.6484;336
5.8066;228
6.0551;229
6.3714;337
6.6426;284
6.9363;339
7.4559;232
7.9304;179
8.1789;233
8.6308;180
9.0827;128
9.4894;236
9.6927;183
10.0768;130
10.5287;185
10.8902;131
11.2969;186
11.7262;133
12.2458;188
12.6525;135
13.127;136
13.6918;191
13.9629;246
14.4374;193
14.6859;140
14.9119;248
15.3412;141
15.7253;250
16.1319;197
16.4709;197
16.9001;144
17.1939;145
17.5779;146
18.075;147
18.4365;202
18.7754;41
19.2499;149
19.7695;151
19.9955;151
20.1988;205
20.47;206
20.8992;261
21.4189;262
21.69;209
22.2323;210
22.5486;157
23.0682;158
23.5427;213
23.9042;160
24.085;160
24.4465;161
24.8757;162
25.192;324
25.5535;217
25.9602;272
26.2991;273
26.751;220
27.2481;275
27.8355;276
28.3326;385
28.9652;278
29.3267;225
29.5978;1629
29.7108;388
30.0949;173
30.6823;228
31.4053;176
31.7668;123
32.3317;178
32.7836;179
33.258;342
33.6421;234
34.2973;182
34.7492;345
35.2237;238
35.5852;77
35.9241;239
36.1952;240
36.4889;187
36.8504;187
37.2571;188
37.5734;243
38.0253;190
38.3642;137
38.7257;138
39.1324;192
39.4713;193
39.878;194
40.2395;195
40.5106;249
41.0077;196
41.4822;90
41.8437;90
42.2277;145
42.5892;200
42.883;308
43.1541;255
43.4478;256
44.0127;203
44.4645;258
44.9842;259
45.4361;206
45.662;260
46.2494;262
46.7239;209
47.2436;210
47.8536;373
48.3732;374
48.8251;321
49.2996;538
49.6159;1510
49.7515;30593
50.0678;486
50.8134;272
51.3782;327
51.6945;381
52.1238;274
52.5983;114
53.0728;115
53.5246;277
53.9539;224
54.451;225
54.7447;226
55.3321;389
55.8292;282
56.2359;229
56.5748;230
56.8007;284
57.1622;177
57.5915;232
57.8852;233
58.3371;342
58.9245;343
59.2634;290
59.6023;291
60.0041;-0.052
60.0224;0.015
60.0408;0.039
60.0591;0.203
60.0774;0.043
60.0957;0.241
60.1141;0.064
60.1324;0.184
60.1507;0.257
60.169;-0.003
60.1874;0.075
60.2057;0.068
60.224;0.154
60.2423;0.222
60.2607;0.251
60.279;0.24
60.2973;0.176
60.3156;-0.063
60.334;0.054
60.3523;0.028
60.3706;0.296
60.3889;0.28
60.4073;0.131
60.4256;0.091
60.4439;0.044
60.4622;0.049
60.4806;0.202
60.4989;0.055
60.5172;0.382
60.5355;0.256
60.5539;0.352
60.5722;0.446
60.5905;0.18
60.6088;0.205
60.6272;0.316
60.6455;0.152
60.6638;0.452
60.6821;0.455
60.7005;0.788
60.7188;1.15
60.7371;1.746
60.7554;1.746
60.7738;1.452
60.7921;1.097
60.8104;1.008
60.8287;0.211
60.8471;0.211
60.8654;0.34
60.8837;0.197
60.902;0.076
60.9204;0.319
60.9387;0.111
60.957;-0.169
60.9753;0.125
60.9937;0.516
61.012;0.266
61.0303;0.079
61.0486;0.097
61.067;0.129
61.0853;0.328
61.1036;0.347
61.1219;0.283
61.1403;0.181
61.1586;0.092
61.1769;0.488
61.1952;0.565
61.2136;1.148
61.2319;1.257
61.2502;0.953
61.2685;0.9
61.2869;0.823
61.3052;0.252
61.3235;0.623
61.3418;0.339
61.3602;0.304
61.3785;0.265
61.3968;0.439
61.4151;0.556
61.4335;0.445
61.4518;0.26
61.4701;0.327
61.4884;-0.028
61.5068;0.098
61.5251;0.307
61.5434;0.198
61.5617;-0.041
61.5801;0.234
61.5984;0.07
61.6167;0.133
61.635;0.423
61.6534;0.089
61.6717;0.199
61.69;-0.001
61.7083;-0.209
61.7267;0.082
61.745;-0.124
61.7633;0.203
61.7816;0.139
61.8;0.108
61.8183;0.234
61.8366;0.155
61.8549;0.196
61.8733;0.38
61.8916;0.043
61.9099;0.462
61.9282;0.042
61.9466;0.235
61.9649;-0.097
61.9832;0.267
62.0015;0.207
62.0199;-0.023
62.0382;0.168
62.0565;0.193
62.0748;0.05
62.0932;0.316
62.1115;0.307
62.1298;0.37
62.1481;0.327
62.1665;-0.029
62.1848;0.095
62.2031;0.131
62.2214;0.056
62.2398;0.237
62.2581;0.35
62.2764;0.156
62.2947;-0.115
62.3131;0.191
62.3314;-0.027
62.3497;0.111
62.368;-0.097
62.3864;0.315
62.4047;0.393
62.423;0.209
62.4413;0.297
62.4597;0.274
62.478;0.055
62.4963;0.425
62.5146;0.062
62.533;0.151
62.5513;0.37
62.5696;0.12
62.5879;0.394
62.6063;0.209
62.6246;-0.037
62.6429;0.007
62.6612;0.15
62.6796;0.087
62.6979;0.205
62.7162;0.269
62.7345;0.115
62.7529;0.112
62.7712;0.031
62.7895;0.287
62.8078;-0.001
62.8262;0.267
62.8445;0.022
62.8628;-0.097
62.8811;0.118
62.8995;0.096
62.9178;0.078
62.9361;0.2
62.9544;0.058
62.9728;0.12
62.9911;0.268
63.0094;0.266
63.0277;0.663
63.0461;1.255
63.0644;1.934
63.0827;2.021
63.101;1.669
63.1194;1.381
63.1377;0.844
63.156;0.662
63.1743;0.198
63.1927;0.335
63.211;0.074
63.2293;0.272
63.2476;-0.061
63.266;0.01
63.2843;0.02
63.3026;0.156
63.3209;-0.01
63.3393;0
63.3576;0.196
63.3759;-0.098
63.3942;0.21
63.4126;0.059
63.4309;0.177
63.4492;0.112
63.4675;0.197
63.4859;0.355
63.5042;0.504
63.5225;0.725
63.5408;0.481
63.5592;0.345
63.5775;0.312
63.5958;0.185
63.6141;0.039
63.6325;0.109
63.6508;-0.081
63.6691;-0.019
63.6874;0.112
63.7058;-0.199
63.7241;0.307
63.7424;0.182
63.7607;0.024
63.7791;0.027
63.7974;0.086
63.8157;0.054
63.834;-0.236
63.8524;0.099
63.8707;0.2
63.889;-0.124
63.9073;0.14
63.9257;0.029
63.944;-0.112
63.9623;0.231
63.9806;-0.026
63.9989;0.097
64.0173;-0.076
64.0356;0.224
64.0539;-0.018
64.0722;-0.071
64.0906;0.228
64.1089;-0.059
64.1272;0.316
64.1455;0.035
64.1639;-0.068
64.1822;0.054
64.2005;0.1
64.2188;0.097
64.2372;0.006
64.2555;0.033
64.2738;0.053
64.2921;0.148
64.3105;0.012
64.3288;0.091
64.3471;0.117
64.3654;0.176
64.3838;0.306
64.4021;-0.076
64.4204;0.064
64.4387;-0.102
64.4571;0.372
64.4754;0.154
64.4937;0.414
64.512;0.288
64.5304;0.726
64.5487;0.541
64.567;0.569
64.5853;0.586
64.6037;0.553
64.622;0.392
64.6403;0.262
64.6586;0.186
64.677;-0.13
64.6953;0.307
64.7136;0.282
64.7319;0.05
64.7503;-0.003
64.7686;0.301
64.7869;0.114
64.8052;0.026
64.8236;0.032
64.8419;0.176
64.8602;0.043
64.8785;0.187
64.8969;0.303
64.9152;-0.006
64.9335;0.129
64.9518;-0.02
64.9702;0.196
64.9885;0.392
65.0068;-0.038
65.0251;0.306
65.0435;0.127
65.0618;-0.179
65.0801;0.007
65.0984;0.147
65.1168;0.129
65.1351;0.177
65.1534;0.22
65.1717;0.112
65.1901;0.161
65.2084;-0.233
65.2267;-0.081
65.245;0.13
65.2634;0.229
65.2817;0.272
65.3;0.089
65.3183;0.209
65.3367;0.067
65.355;0.006
65.3733;0.036
65.3916;0.02
65.41;0.228
65.4283;0.055
65.4466;0.122
65.4649;0
65.4833;0.068
65.5016;0.113
65.5199;0.275
65.5382;0.171
65.5566;0.313
65.5749;-0.037
65.5932;0.134
65.6115;-0.134
65.6299;0.024
65.6482;0.159
65.6665;-0.009
65.6848;0.191
65.7032;0.283
65.7215;0.02
65.7398;0.003
65.7581;0.113
65.7765;0.254
65.7948;0.572
65.8131;0.17
65.8314;0.067
65.8498;0.082
65.8681;0.263
65.8864;0.254
65.9047;0.294
65.9231;0.519
65.9414;0.596
65.9597;0.346
65.978;0.167
65.9964;0.232
66.0147;0.412
66.033;0.27
66.0513;0.288
66.0697;0.134
66.088;0.04
66.1063;0.073
66.1246;0.19
66.143;0.005
66.1613;0.26
66.1796;0.383
66.1979;0.111
66.2163;0.008
66.2346;0.07
66.2529;0.058
66.2712;0.262
66.2896;0.124
66.3079;0.089
66.3262;0.395
66.3445;0.074
66.3629;0.101
66.3812;0.013
66.3995;0.228
66.4178;0.509
66.4362;0.164
66.4545;0.001
66.4728;0.002
66.4911;0.296
66.5095;-0.022
66.5278;0.168
66.5461;0.05
66.5644;0.059
66.5828;0.204
66.6011;-0.027
66.6194;0.107
66.6377;0.044
66.6561;0.089
66.6744;-0.022
66.6927;-0.219
66.711;0.322
66.7294;0.115
66.7477;0.245
66.766;-0.078
66.7843;-0.148
66.8027;0.129
66.821;0.033
66.8393;0.065
66.8576;0.127
66.876;0.037
66.8943;-0.049
66.9126;0.329
66.9309;0.346
66.9493;0.165
66.9676;0.48
66.9859;0.009
67.0042;-0.115
67.0226;-0.048
67.0409;-0.008
67.0592;0.428
67.0775;0.233
67.0959;-0.024
67.1142;0.169
67.1325;0.202
67.1508;0.036
67.1692;0.236
67.1875;0.372
67.2058;0.297
67.2241;0.059
67.2425;0.231
67.2608;0.142
67.2791;0.515
67.2974;0.29
67.3158;0.358
67.3341;1.187
67.3524;2.176
67.3707;4.012
67.3891;5.799
67.4074;5.649
67.4257;5.822
67.444;6.129
67.4624;4.408
67.4807;2.87
67.499;1.51
67.5173;0.806
67.5357;0.514
67.554;0.437
67.5723;0.145
67.5906;-0.196
67.609;0.211
67.6273;0.148
67.6456;0.54
67.6639;0.385
67.6823;0.379
67.7006;0.174
67.7189;0.123
67.7372;0.219
67.7556;0.305
67.7739;0.144
67.7922;-0.069
67.8105;0.158
67.8289;0.137
67.8472;0.009
67.8655;0.062
67.8838;-0.024
67.9022;0.213
67.9205;0.055
67.9388;0.067
67.9571;-0.019
67.9755;-0.041
67.9938;0.043
68.0121;0.189
68.0304;0.036
68.0488;0.131
68.0671;0.216
68.0854;0.259
68.1037;0.165
68.1221;0.176
68.1404;0.237
68.1587;0.439
68.177;0.323
68.1954;0.405
68.2137;1.031
68.232;1.136
68.2503;0.861
68.2687;0.8
68.287;0.745
68.3053;0.258
68.3236;0.255
68.342;0.522
68.3603;0.122
68.3786;-0.137
68.3969;0.239
68.4153;-0.193
68.4336;0.258
68.4519;0.132
68.4702;-0.079
68.4886;0.054
68.5069;0.23
68.5252;0.115
68.5435;-0.09
68.5619;0.277
68.5802;-0.127
68.5985;0.109
68.6168;0.161
68.6352;-0.17
68.6535;0.329
68.6718;0.183
68.6901;0.067
68.7085;-0.061
68.7268;0.345
68.7451;0.136
68.7634;0.06
68.7818;0.226
68.8001;0.056
68.8184;0.147
68.8367;0.296
68.8551;0.075
68.8734;0.318
68.8917;0.242
68.91;-0.14
68.9284;0.165
68.9467;0.215
68.965;0.299
68.9833;0.092
69.0017;0.113
69.02;0.11
69.0383;0.209
69.0566;0.281
69.075;0.04
69.0933;0.033
69.1116;0.15
69.1299;0.028
69.1483;0.258
69.1666;0.22
69.1849;0.085
69.2032;0.045
69.2216;0.173
69.2399;0.234
69.2582;0.277
69.2765;0.279
69.2949;-0.036
69.3132;0.133
69.3315;-0.017
69.3498;0.262
69.3682;-0.001
69.3865;0.079
69.4048;0.114
69.4231;0.036
69.4415;-0.013
69.4598;0.345
69.4781;0.019
69.4964;0.236
69.5147;0.254
69.5331;0.163
69.5514;0.27
69.5697;0.55
69.588;0.321
69.6064;0.656
69.6247;0.768
69.643;1.096
69.6613;0.853
69.6797;0.569
69.698;0.37
69.7163;0.483
69.7346;0.234
69.753;0.219
69.7713;0.278
69.7896;-0.103
69.8079;0.064
69.8263;0.21
69.8446;0.292
69.8629;0.04
69.8812;0.255
69.8996;0.33
69.9179;0.277
69.9362;-0.203
69.9545;0.194
69.9729;-0.022
69.9912;0.195
70.0095;0.13
70.0278;0.239
70.0462;0.092
70.0645;0.213
70.0828;0.238
70.1011;0.099
70.1195;0.117
70.1378;0.371
70.1561;0.133
70.1744;0.236
70.1928;0.237
70.2111;0.015
70.2294;-0.21
70.2477;0.308
70.2661;0.262
70.2844;-0.013
70.3027;0.315
70.321;0.162
70.3394;0.058
70.3577;-0.065
70.376;0.036
70.3943;-0.012
70.4127;0.1
70.431;0.194
70.4493;0.161
70.4676;0.04
70.486;0.189
70.5043;0.095
70.5226;0.034
70.5409;0.24
70.5593;0.172
70.5776;0.03
70.5959;0.309
70.6142;0.216
70.6326;0.222
70.6509;0.169
70.6692;-0.028
70.6875;0.221
70.7059;0.234
70.7242;0.401
70.7425;0.526
70.7608;0.025
70.7792;0.427
70.7975;0.322
70.8158;0.132
70.8341;0.193
70.8525;0.335
70.8708;0.141
70.8891;-0.007
70.9074;0.215
70.9258;0.13
70.9441;-0.068
70.9624;0.224
70.9807;0.068
70.9991;0.137
71.0174;0.086
71.0357;0.149
71.054;-0.087
71.0724;0.016
71.0907;0.189
71.109;-0.011
71.1273;-0.047
71.1457;0.276
71.164;0.164
71.1823;0.262
71.2006;0.27
71.219;0.389
71.2373;0.296
71.2556;0.472
71.2739;0.195
71.2923;-0.078
71.3106;0.429
71.3289;0.199
71.3472;0.139
71.3656;0.204
71.3839;-0.083
71.4022;0.213
71.4205;0.287
71.4389;0.404
71.4572;0.235
71.4755;-0.043
71.4938;0.185
71.5122;-0.085
71.5305;0.061
71.5488;0.006
71.5671;0.187
71.5855;0.13
71.6038;0.161
71.6221;0.093
71.6404;0.024
71.6588;0.303
71.6771;0.18
71.6954;0.087
71.7137;0.245
71.7321;0.221
71.7504;0.113
71.7687;0.083
71.787;0.108
71.8054;0.182
71.8237;0.122
71.842;0.278
71.8603;0.05
71.8787;0.17
71.897;0.119
71.9153;0.005
71.9336;-0.039
71.952;0.163
71.9703;-0.034
71.9886;0.033
72.0069;0.184
72.0253;0.151
72.0436;0.223
72.0619;0.264
72.0802;-0.103
72.0986;0.222
72.1169;0.398
72.1352;0.377
72.1535;0.374
72.1719;0.196
72.1902;0.373
72.2085;0.188
72.2268;0.196
72.2452;0.182
72.2635;0.063
72.2818;0.249
72.3001;0.155
72.3185;0.208
72.3368;0.105
72.3551;0.433
72.3734;0.093
72.3918;0.202
72.4101;0.221
72.4284;0.077
72.4467;0.259
72.4651;0.106
72.4834;0.042
72.5017;0.17
72.52;0.141
72.5384;-0.033
72.5567;0.29
72.575;0.092
72.5933;0.2
72.6117;0.111
72.63;0.407
72.6483;0.203
72.6666;0.319
72.685;0.199
72.7033;0.188
72.7216;0.231
72.7399;0.26
72.7583;0.091
72.7766;0.19
72.7949;0.236
72.8132;0.143
72.8316;0.019
72.8499;0.084
72.8682;0.242
72.8865;0.208
72.9049;0.124
72.9232;-0.004
72.9415;0.028
72.9598;0.133
72.9782;0.156
72.9965;0.12
73.0148;0.107
73.0331;0.197
73.0515;0.131
73.0698;0.036
73.0881;-0.007
73.1064;0.155
73.1248;0.252
73.1431;0.193
73.1614;0.064
73.1797;0.27
73.1981;0.04
73.2164;0.087
73.2347;0.233
73.253;0.135
73.2714;0.114
73.2897;0.231
73.308;0.249
73.3263;0.257
73.3447;0.018
73.363;0.1
73.3813;0.138
73.3996;0.114
73.418;0.107
73.4363;0.239
73.4546;0.18
73.4729;0.002
73.4913;0.127
73.5096;0.09
73.5279;0.125
73.5462;0.224
73.5646;0.102
73.5829;-0.066
73.6012;0.09
73.6195;0.068
73.6379;-0.001
73.6562;0.163
73.6745;0.175
73.6928;0.03
73.7112;-0.057
73.7295;0.144
73.7478;0.019
73.7661;-0.083
73.7845;-0.066
73.8028;-0.009
73.8211;0.071
73.8394;0.377
73.8578;0.109
73.8761;0.021
73.8944;0.295
73.9127;0.118
73.9311;0.224
73.9494;0.098
73.9677;0.19
73.986;-0.014
74.0044;0.063
74.0227;0.189
74.041;0.036
74.0593;-0.052
74.0777;0.249
74.096;0.039
74.1143;-0.156
74.1326;0.166
74.151;0.152
74.1693;0.054
74.1876;0.154
74.2059;0.312
74.2243;0.303
74.2426;0.416
74.2609;-0.006
74.2792;0.026
74.2976;0.129
74.3159;0.069
74.3342;0.073
74.3525;0.294
74.3709;0.008
74.3892;0.224
74.4075;0.035
74.4258;0.212
74.4442;0.307
74.4625;0.184
74.4808;0.207
74.4991;0.137
74.5175;0.426
74.5358;0.243
74.5541;-0.032
74.5724;0.01
74.5908;0.037
74.6091;0.057
74.6274;0.119
74.6457;0.115
74.6641;0.16
74.6824;0.013
74.7007;0.011
74.719;0.11
74.7374;0.189
74.7557;-0.003
74.774;0.024
74.7923;0.289
74.8107;0.167
74.829;0.179
74.8473;0.022
74.8656;0.199
74.884;-0.024
74.9023;0.188
74.9206;0.1
74.9389;0.208
74.9573;0.077
74.9756;-0.017
74.9939;0.173
75.0122;0.287
75.0305;0.069
75.0489;0.061
75.0672;0.015
75.0855;0.215
75.1038;0.204
75.1222;0.238
75.1405;-0.127
75.1588;-0.009
75.1771;-0.003
75.1955;0.049
75.2138;-0.018
75.2321;-0.131
75.2504;-0.06
75.2688;0.23
75.2871;0.184
75.3054;0.012
75.3237;0.13
75.3421;0.005
75.3604;0.245
75.3787;0.095
75.397;0.316
75.4154;0.156
75.4337;0.203
75.452;0.366
75.4703;0.557
75.4887;0.369
75.507;0.419
75.5253;0.504
75.5436;0.42
75.562;0.523
75.5803;0.196
75.5986;0.267
75.6169;-0.021
75.6353;0.196
75.6536;0.103
75.6719;0.144
75.6902;0.12
75.7086;0.054
75.7269;0.129
75.7452;0.195
75.7635;0.189
75.7819;0.152
75.8002;0.136
75.8185;0.193
75.8368;0.251
75.8552;0.05
75.8735;-0.022
75.8918;-0.017
75.9101;0.201
75.9285;0.12
75.9468;0.31
75.9651;-0.024
75.9834;0.312
76.0018;0.198
76.0201;0.126
76.0384;-0.034
76.0567;-0.07
76.0751;0.065
76.0934;0.087
76.1117;0.206
76.13;0.191
76.1484;0.23
76.1667;0.145
76.185;0.287
76.2033;-0.059
76.2217;-0.125
76.24;0.117
76.2583;0.245
76.2766;0.365
76.295;0.28
76.3133;0.254
76.3316;0.147
76.3499;0.143
76.3683;-0.014
76.3866;0.218
76.4049;0.204
76.4232;0.044
76.4416;0.198
76.4599;0.523
76.4782;0.136
76.4965;0
76.5149;0.142
76.5332;0.273
76.5515;-0.039
76.5698;0.075
76.5882;0.197
76.6065;0.163
76.6248;0.164
76.6431;0.319
76.6615;0.256
76.6798;0.234
76.6981;0.84
76.7164;0.714
76.7348;0.461
76.7531;0.326
76.7714;0.183
76.7897;0.061
76.8081;0.219
76.8264;0.442
76.8447;0.232
76.863;0.189
76.8814;0.182
76.8997;0.366
76.918;-0.094
76.9363;0.132
76.9547;0.223
76.973;0.25
76.9913;0.315
77.0096;0.376
77.028;0.28
77.0463;0.309
77.0646;0.073
77.0829;0.179
77.1013;0.213
77.1196;0.237
77.1379;0.473
77.1562;0.376
77.1746;0.268
77.1929;0.007
77.2112;0.089
77.2295;0.198
77.2479;0.117
77.2662;0.178
77.2845;0.017
77.3028;0.114
77.3212;0.508
77.3395;0.102
77.3578;0.439
77.3761;0.327
77.3945;0.197
77.4128;0.101
77.4311;0.363
77.4494;0.263
77.4678;0.265
77.4861;0.275
77.5044;0.094
77.5227;0.014
77.5411;0.244
77.5594;0.327
77.5777;0.102
77.596;0.122
77.6144;0.257
77.6327;0.232
77.651;0.097
77.6693;0.063
77.6877;-0.002
77.706;0.076
77.7243;0.051
77.7426;0.449
77.761;0.189
77.7793;0.162
77.7976;0.212
77.8159;0.115
77.8343;0.106
77.8526;-0.08
77.8709;0.132
77.8892;-0.036
77.9076;0.172
77.9259;0.202
77.9442;0.143
77.9625;-0.081
77.9809;-0.018
77.9992;0.169
78.0175;0.078
78.0358;0.101
78.0542;0.133
78.0725;-0.058
78.0908;0.167
78.1091;0.182
78.1275;0.095
78.1458;0.408
78.1641;0.341
78.1824;-0.056
78.2008;-0.069
78.2191;0.213
78.2374;0.238
78.2557;-0.083
78.2741;0.161
78.2924;-0.025
78.3107;-0.006
78.329;0.229
78.3474;0.034
78.3657;0.106
78.384;0.224
78.4023;0.279
78.4207;0.037
78.439;-0.038
78.4573;0.11
78.4756;0.169
78.494;-0.166
78.5123;0.145
78.5306;0.066
78.5489;0.27
78.5673;0.112
78.5856;0.106
78.6039;0.39
78.6222;0.341
78.6406;0.305
78.6589;0.203
78.6772;0.259
78.6955;0.392
78.7139;0.028
78.7322;0.268
78.7505;0.041
78.7688;0.009
78.7872;0.087
78.8055;0.112
78.8238;0.115
78.8421;0.213
78.8605;0.177
78.8788;0.201
78.8971;0.288
78.9154;0.239
78.9338;0.16
78.9521;-0.079
78.9704;0.156
78.9887;0.073
79.0071;0.221
79.0254;0.017
79.0437;0.096
79.062;0.418
79.0804;0.163
79.0987;0.013
79.117;0.252
79.1353;0.05
79.1537;0.035
79.172;0.234
79.1903;0.344
79.2086;0.11
79.227;0.073
79.2453;-0.032
79.2636;0.197
79.2819;0.113
79.3003;0.028
79.3186;0.179
79.3369;0.192
79.3552;-0.009
79.3736;0
79.3919;0.055
79.4102;0.187
79.4285;0.095
79.4469;0.254
79.4652;0.209
79.4835;0.113
79.5018;0.098
79.5202;0.328
79.5385;0.165
79.5568;0.04
79.5751;-0.024
79.5935;-0.035
79.6118;0.124
79.6301;0.033
79.6484;-0.015
79.6668;0.074
79.6851;-0.043
79.7034;0.192
79.7217;-0.049
79.7401;-0.045
79.7584;0.047
79.7767;0.151
79.795;0.25
79.8134;-0.015
79.8317;0.062
79.85;-0.001
79.8683;0.06
79.8867;-0.082
79.905;-0.08
79.9233;0.226
79.9416;0.012
79.96;-0.014
79.9783;-0.083
79.992;0